File: materials-modeling/raman/drho_e2
default
      36      36      36      36      36      36       2       1
     0  7.25577  0.00000000  0.00000000  0.00000000  0.00000000  0.00000000
      320.051        8       30    -1
   1   Si    4.00
   1     0.0000000000  0.0000000000  0.0000000000    1
  0.384692  0.45024  0.462978  0.415208  0.320882
  0.108156  0.160359  0.191002  0.193406  0.163948
 -0.327585 -0.192752 -0.0514527  0.0937518  0.405638
 -0.112857 -0.15485 -0.153569 -0.108445 -0.0250676
 -0.0150623 -0.181664 -0.33499 -0.451856 -0.510878
  0.621047  0.510041  0.375578  0.231672  0.0901601
  0.568333  0.636034  0.645474  0.601378  0.51493
  0.0742889  0.212594  0.350699  0.467349  0.545521
 -0.330245 -0.301759 -0.221591 -0.0986097  0.0509365
  0.127339  0.0722313  0.0334577  0.015501  0.0212106
  0.148926  0.0774644 -0.00695542 -0.09929 -0.191262
  0.0417048  0.0841877  0.10822  0.114941  0.108156
  0.138215  0.163451  0.183375  0.194961  0.195842
 -0.171412 -0.193878 -0.205456 -0.206127 -0.196566
 -0.0229366 -0.0104094  0.00341191  0.0189723  0.0362805
  0.160794  0.157086  0.209893  0.209772  0.202699
 -0.0602247 -0.0722313 -0.0770584 -0.0765083 -0.0720716
  0.0674112  0.0885035  0.111447  0.136631  0.164395
  0.57329  0.512175  0.437255  0.35736  0.278989
 -0.0451273 -0.0398313 -0.0304647 -0.0179271 -0.00288746
  0.367845  0.452885  0.545521  0.636034  0.72887
  0.236627  0.166013  0.0997587  0.0445118  0.00252144
  0.0442378  0.0586764  0.0715299  0.0845751  0.100498
  0.192908  0.192752  0.221454  0.271479  0.323952
 -0.0793925 -0.068293 -0.047108 -0.020417  0.00699033
 -0.306439 -0.272317 -0.20166 -0.120331 -0.0514527
  0.276824  0.1409  0.0215477 -0.0699758 -0.129513
  0.164923  0.0802263 -0.0379398 -0.181948 -0.335744
  0.54249  0.661214  0.719581  0.710258  0.635631
 -0.014064  0.130346  0.273299  0.391281  0.466
 -0.505121 -0.462978 -0.348746 -0.173876  0.0420527
 -0.0516437 -0.181948 -0.276824 -0.320882 -0.302712
  0.510041  0.375578  0.231672  0.0901601 -0.0379398
  0.542265  0.542447  0.393703  0.306032  0.194506
  0.0865959  0.249167  0.384289  0.476432  0.518588
  0.0354536  0.073424  0.12737  0.189626  0.250963
 -0.310179 -0.388184 -0.434626 -0.443216 -0.414115
  0.065257  0.0559386  0.0444526  0.0347318  0.0297949
  0.173305  0.153931  0.121386  0.0754771  0.016415
 -0.269135 -0.248006 -0.21823 -0.184016 -0.149849
  0.0361512  0.0555055  0.0748292  0.0933892  0.110288
  0.194506  0.172435  0.140043  0.0986526  0.0512981
 -0.0828881 -0.0731853 -0.0617024 -0.0488008 -0.0347237
  0.175051  0.208361  0.244814  0.283749  0.3236
  0.276824  0.205456  0.140834  0.0847602  0.0386555
 -0.00317418  0.0154547  0.0361512  0.0590473  0.0846348
  0.752648  0.757259  0.719581  0.65854  0.595572
 -0.00857489 -0.0398483 -0.0580313 -0.0647095 -0.0617024
  0.0868532  0.109423  0.148607  0.211415  0.298366
  0.446306  0.455838  0.414115  0.330245  0.226177
  0.0106133  0.0347318  0.0468584  0.0438623  0.024197
 -0.0580897 -1.398e-17  0.113048  0.224456  0.339828
 -0.213096 -0.223921 -0.198977 -0.143588 -0.0674594
 -0.41055 -0.54273 -0.620876 -0.629475 -0.571498
  0.555726  0.397772  0.22313  0.0524134 -0.0984467
  0.542194  0.541211  0.481313  0.372565  0.226868
  0.148524  0.373949  0.564936  0.695408  0.707442
 -0.350621 -0.217848 -0.0315908  0.183808  0.397539
 -0.0695875 -0.154384 -0.196566 -0.187976 -0.126194
  0.0661704 -0.0778108 -0.224499 -0.355017 -0.447752
  0.49959  0.479875  0.423595  0.344019  0.255064
  0.252877  0.289905  0.306137  0.297545  0.262823
 -0.457572 -0.38894 -0.306439 -0.217848 -0.129611
  0.015634  0.0242768  0.0400486  0.0623901  0.0894637
 -0.0401949 -0.107737 -0.179407 -0.248564 -0.308598
 -0.198977 -0.160359 -0.127153 -0.0993069 -0.0759563
  0.106263  0.118332  0.126037  0.128504  0.12516
  0.000463461 -0.0524134 -0.0984467 -0.133436 -0.155456
 -0.0381184 -0.0218657 -0.00485435  0.0128693  0.0312743
  0.33835  0.37574  0.51493  0.53925  0.539134
  0.0282976 -0.00713797 -0.0325898 -0.0492099 -0.0581638
  0.0880161  0.118525  0.154807  0.19895  0.252877
  0.587821  0.556909  0.527082  0.484779  0.421795
 -0.0744312 -0.0601977 -0.0413284 -0.0201551  0.00138479
  0.279809  0.373949  0.449134  0.486897  0.324633
  0.183917  0.0742696 -0.0122793 -0.0735077 -0.110694
  0.000600061 -0.0501297 -0.115932 -0.187976 -0.250654
  0.450104  0.543581  0.583275  0.551601  0.451856
 -0.0572327  0.0442984  0.129351  0.184016  0.199821
 -0.610321 -0.485985 -0.320681 -0.129826  0.0694796
 -0.25923 -0.366568 -0.422796 -0.418136 -0.348926
  0.182457 -0.000941768 -0.185536 -0.353665 -0.485495
  0.611561  0.524168  0.393087  0.232627  0.0565099
  0.485451  0.652479  0.752648  0.777646  0.731444
 -0.0720114  0.0417048  0.175349  0.30737  0.416263
 -0.540839 -0.530621 -0.458471 -0.335774 -0.176219
  0.199821  0.122135  0.0586612  0.014537 -0.00673508
  0.188581  0.113062 -0.0533501 -0.173287 -0.302477
 -0.199004 -0.122174 -0.053029  8.32667e-17  0.0321013
  0.0881711  0.114588  0.137725  0.154167  0.160509
 -0.375639 -0.419892 -0.451856 -0.473388 -0.484074
 -0.0932536 -0.0689571 -0.0472117 -0.0265967 -0.00612787
  0.107684  0.0948002  0.0748822  0.0473688  0.0935465
 -0.200227 -0.201964 -0.193769 -0.179001 -0.160577
  0.0306163  0.0500353  0.0701447  0.0910976  0.113058
  0.512678  0.476287  0.420592  0.353665  0.283034
 -0.070184 -0.0707097 -0.0653497 -0.0552368 -0.0415245
  0.255381  0.321904  0.39966  0.485138  0.569983
  0.414349  0.319567  0.219903  0.128181  0.0520783
 -0.00149478  0.0178374  0.0335699  0.0463682  0.0582145
  0.290635  0.327585  0.38175  0.451754  0.522295
 -0.160577 -0.165449 -0.150792 -0.121599 -0.0840548
 -0.327779 -0.361185 -0.350113 -0.297929 -0.219205
  0.33499  0.170754  0.00977864 -0.129727 -0.237814
  0.217113  0.169671  0.08067 -0.0430284 -0.192366
  0.149197  0.345983  0.596653  0.64214  0.611574
 -0.376512 -0.204263 -5.55112e-17  0.204263  0.376512
 -0.509628 -0.561608 -0.541342 -0.445235 -0.28154
 -0.124682 -0.299326 -0.446106 -0.54273 -0.571574
  0.696579  0.577986  0.425168  0.25923  0.0984467
  0.385652  0.422609  0.413937  0.360708  0.162735
 -0.116937  0.0459995  0.204242  0.34306  0.449134
 -0.0110908  0.00239762  0.0357045  0.08371  0.138911
 -0.41177 -0.517842 -0.582965 -0.598572 -0.569985
 -0.0304646 -0.0106534 -0.00443832 -0.00509492 -0.00719558
  0.132932  0.118413  0.0887457  0.0424985 -0.0217644
 -0.561456 -0.561608 -0.53736 -0.48898 -0.423595
 -0.00939715  0.0118121  0.0322352  0.0514474  0.0688179
  0.0646552  0.0301456 -0.0137536 -0.0661046 -0.124682
 -0.174247 -0.151286 -0.128777 -0.107102 -0.0862871
  0.111273  0.134017  0.15788  0.182675  0.207725
  0.233922  0.170754  0.111889  0.0590307  0.0137856
 -0.0466365 -0.0287529 -0.00915689  0.0118121  0.0340192
  0.542194  0.601749  0.64493  0.64214  0.620876
  0.00817636 -0.0452392 -0.0817602 -0.103078 -0.110842
  0.0357045  0.0431591  0.0572127  0.0841877  0.130346
  0.581621  0.598572  0.559401  0.466856  0.339785
 -0.087316 -0.0425655 -0.00719558  0.0131431  0.0150469
 -0.291697 -0.181465 -0.0581187  0.0710469  0.221454
 -0.360708 -0.413937 -0.422609 -0.385652 -0.308033
 -0.25923 -0.425168 -0.577986 -0.696579 -0.760978
  0.485495  0.353665  0.185536  0.000941768 -0.182457
  0.445235  0.541342  0.561608  0.509628  0.397772
 -0.204263  5.55112e-17  0.204263  0.376512  0.491907
 -0.595572 -0.499963 -0.345983 -0.149197  0.071244
  0.0430284 -0.08067 -0.169671 -0.217113 -0.21823
  0.0318252 -0.111889 -0.270118 -0.419892 -0.531642
  0.379655  0.434146  0.445235  0.410619  0.339222
  0.134248  0.175512  0.20355  0.212062  0.196671
 -0.535021 -0.47769 -0.426152 -0.384692 -0.345983
 -0.0300143 -0.0226186 -0.011124  0.00562487  0.0273139
 -0.0799583 -0.169596 -0.24874 -0.339785 -0.421495
 -0.466 -0.385652 -0.310717 -0.245997 -0.192438
  0.0622059  0.0745029  0.0822821  0.0842529  0.0793197
 -0.185536 -0.249728 -0.306593 -0.349163 -0.372565
 -0.0895911 -0.0688179 -0.0487756 -0.0293001 -0.0102675
  0.196671  0.21672  0.23161  0.237814  0.334293
 -0.0166178 -0.0487297 -0.0725586 -0.0887457 -0.0981064
  0.0312009  0.0538385  0.0781477  0.105498  0.137477
  0.56463  0.551601  0.531642  0.498455  0.445686
 -0.134017 -0.124085 -0.106163 -0.0833955 -0.0586318
  0.0697451  0.129721  0.204263  0.28154  0.350113
  0.233063  0.0985803 -0.0166178 -0.106411 -0.169839
  0.00251399 -0.0278168 -0.0777546 -0.143435 -0.21823
  0.305045  0.441467  0.534238  0.567659  0.531642
 -0.30737 -0.175349 -0.0417048  0.0720114  0.148609
 -0.777646 -0.752648 -0.652479 -0.485451 -0.272217
 -0.358748 -0.512678 -0.627497 -0.686283 -0.675342
  0.353665  0.185536  0.000941768 -0.182457 -0.349163
  0.418136  0.422796  0.279579  0.15621  0.000463461
  0.129826  0.320681  0.485985  0.610321  0.678958
 -0.184016 -0.129351 -0.0442984  0.0572327  0.158052
 -0.567659 -0.558358 -0.487899 -0.38175 -0.263484
  0.260609  0.178228  0.0981405  0.0319351 -0.014537
  0.13267  0.079301 -0.00129092 -0.109032 -0.288622
 -0.414692 -0.379655 -0.314831 -0.230448 -0.146566
  0.0237381  0.0472117  0.0696676  0.0884527  0.100525
 -0.447752 -0.505824 -0.551601 -0.593253 -0.636943
 -0.200338 -0.15546 -0.1188 -0.0881711 -0.0614974
  0.0628001  0.0476576  0.0237248 -0.0101184 -0.0545514
 -0.40641 -0.399464 -0.376233 -0.342243 -0.302857
 -0.011779  0.00652727  0.0243056  0.0415245  0.0581147
  0.279579  0.25923  0.22313  0.175154  0.120932
 -0.114117 -0.114572 -0.109557 -0.0998114 -0.0863208
  0.121599  0.155278  0.195171  0.241362  0.292322
  0.383287  0.302477  0.212176  0.122958  0.04333
 -0.0615701 -0.037448 -0.0178374 -0.00374903  0.00513515
  0.275836  0.348746  0.369358  0.458471  0.52975
 -0.238243 -0.262245 -0.261617 -0.239239 -0.200338
 -0.28387 -0.362823 -0.422534 -0.449385 -0.434128
  0.419892  0.286291  0.128974 -0.0293873 -0.172435
  0.187976  0.196566  0.154384  0.0695875 -0.0472933
 -0.183808  0.0315908  0.217848  0.350621  0.399033
 -0.695408 -0.564936 -0.373949 -0.148524  0.0787053
 -0.372565 -0.481313 -0.541211 -0.542194 -0.479875
 -0.155181 -0.324848 -0.485495 -0.611574 -0.680084
  0.629475  0.620876  0.54273  0.41055  0.251352
  0.143588  0.198977  0.223921  0.213096  0.164923
 -0.175922 -0.0872181 -0.00449759  0.0786695  0.167018
 -0.0325914 -0.0449144 -0.0383174 -0.01535  0.0194685
 -0.339765 -0.443216 -0.511131 -0.529053 -0.499772
 -0.19087 -0.123941 -0.0828992 -0.0620624 -0.0528998
  0.0813262  0.0781407  0.0625299  0.0325898 -0.0135479
 -0.680084 -0.73241 -0.760978 -0.751194 -0.699534
 -0.0614252 -0.0374703 -0.015526  0.00453916  0.0225619
 -0.0742696 -0.130113 -0.119467 -0.181948 -0.251352
 -0.297545 -0.256815 -0.218278 -0.182949 -0.151092
  0.05354  0.068006  0.0813262  0.0932273  0.103274
  0.0612418  0.0137536 -0.0293873 -0.0661704 -0.0955808
 -0.090917 -0.0733782 -0.0545441 -0.0350876 -0.015526
  0.24142  0.28387  0.320739  0.346412  0.399033
 -0.0183923 -0.0742092 -0.115633 -0.143177 -0.157504
 -0.0133016 -0.01535 -0.0190548 -0.0208749 -0.0162501
  0.511131  0.52406  0.489764  0.41177  0.302477
 -0.201756 -0.144927 -0.0911596 -0.0483934 -0.0226573
 -0.473265 -0.397539 -0.276407 -0.121524  0.0491283
 -0.30368 -0.404895 -0.472228 -0.498853 -0.480435
 -0.0901601 -0.231672 -0.375578 -0.510041 -0.621047
  0.278989  0.206875  0.0921705 -0.0512981 -0.21041
  0.173876  0.348746  0.462978  0.505121  0.473388
 -0.391281 -0.273299 -0.130346  0.014064  0.136333
 -0.65854 -0.610321 -0.509492 -0.371664 -0.210649
  0.181948  0.0379398 -0.0802263 -0.164923 -0.213096
  0.0699758 -0.0215477 -0.205456 -0.333259 -0.440945
  0.131186  0.216664  0.297675  0.348746  0.350621
  0.0209203  0.054363  0.083827  0.10353  0.108351
 -0.407084 -0.359786 -0.327585 -0.323948 -0.345334
 -0.073424 -0.0637072 -0.054143 -0.0423861 -0.0272172
 -0.0374919 -0.0996708 -0.176872 -0.263016 -0.330245
 -0.685125 -0.593699 -0.494178 -0.400095 -0.318465
  0.0196224  0.033497  0.0440513  0.0502355  0.0508843
 -0.279345 -0.354179 -0.425168 -0.484428 -0.524168
 -0.14497 -0.117883 -0.0933892 -0.0710297 -0.0503781
  0.0902417  0.094303  0.093608  0.0862058  0.0699758
 -0.118939 -0.135844 -0.14682 -0.152622 -0.153931
 -0.0173796  0.00037757  0.0170295  0.0329294  0.0488014
  0.320882  0.333259  0.331654  0.314611  0.28138
 -0.179978 -0.175051 -0.160524 -0.139139 -0.113931
 -0.0674594 -0.0572327 -0.0304646  0.014064  0.0740453
  0.173287  0.0592464 -0.0461911 -0.135844 -0.206311
 -0.0184582 -0.024197 -0.0514572 -0.0969865 -0.156339
  0.0819865  0.233816  0.353032  0.39988  0.384845
 -0.494178 -0.402963 -0.281499 -0.148607 -0.0251529
 -0.601378 -0.645474 -0.636034 -0.568333 -0.447617
 -0.334293 -0.481313 -0.611561 -0.707442 -0.751152
  0.451856  0.33499  0.181664  0.0150623 -0.145661
  0.108445  0.153569  0.15485  0.112857 -0.0321616
 -0.0937518  0.0514527  0.192752  0.327585  0.450104
 -0.193406 -0.191002 -0.160359 -0.108156 -0.0439783
 -0.408631 -0.416949 -0.368942 -0.284757 -0.192752
  0.291249  0.23427  0.156197  0.077948  0.0128663
  0.0765083  0.0567486  0.01811 -0.0405374 -0.118021
 -0.371664 -0.405638 -0.403043 -0.355944 -0.276407
 -0.0275094 -0.00889895  0.0104094  0.0288448  0.0445556
 -0.293214 -0.353974 -0.408631 -0.462978 -0.524721
 -0.294635 -0.233819 -0.184215 -0.143949 -0.110874
  0.045372  0.0395989  0.0267866  0.00571351 -0.0249621
 -0.510041 -0.51493 -0.497499 -0.46262 -0.416681
 -0.0478305 -0.0295451 -0.0124748  0.00336933  0.0179271
  0.0393208  0.00846074  0.0321616 -0.00518725 -0.0472933
 -0.160392 -0.156083 -0.148062 -0.136672 -0.122471
  0.0349029  0.047108  0.0602579  0.0748966  0.0912921
  0.203526  0.1556  0.09929  0.0401949 -0.016415
 -0.110874 -0.0844541 -0.0615801 -0.0442378 -0.0334801
  0.017242  0.0878703  0.163206  0.234717  0.301759
 -0.265732 -0.301169 -0.314612 -0.305923 -0.277365
 -0.193406 -0.264068 -0.331386 -0.385652 -0.416263
  0.25734  0.171412  0.0590307 -0.0646552 -0.187238
  0.043183  0.12315  0.156197  0.141159  0.0839029
 -0.350699 -0.212594 -0.0742889  0.043183  0.12315
 -0.700357 -0.635499 -0.506726 -0.327564 -0.121524
 -0.172435 -0.290186 -0.376233 -0.425341 -0.433425
 -0.112857 -0.225174 -0.346412 -0.458815 -0.541342
  0.487899  0.558358  0.567659  0.505824  0.386418
 -0.0291456  0.0190548  0.0552065  0.0725605  0.0667641
 -0.0514527 -0.00449759  0.0252094  0.0508633  0.0872181
 -0.0150329 -0.047339 -0.0626982 -0.0625736 -0.0495002
 -0.114164 -0.178326 -0.221591 -0.233816 -0.21473
 -0.249167 -0.174381 -0.119477 -0.0876381 -0.072891
  0.0398286  0.048457  0.0505222  0.0445468  0.0295257
 -0.494585 -0.576504 -0.649509 -0.695408 -0.700357
 -0.101581 -0.0757178 -0.052863 -0.0323094 -0.0137443
 -0.0154432 -0.0521909 -0.099237 -0.156197 -0.196566
 -0.373968 -0.328064 -0.28264 -0.239995 -0.201271
  0.0175252  0.0296643  0.0401244  0.048457  0.0540919
 -0.0802263 -0.116232 -0.148137 -0.173708 -0.191815
 -0.120429 -0.103568 -0.0856768 -0.0674305 -0.0494485
  0.0552065  0.0673021  0.0797324  0.0907192  0.0981405
 -0.0663214 -0.107862 -0.141152 -0.165192 -0.17952
 -0.0405291 -0.0422273 -0.0495002 -0.0602579 -0.0718301
  0.236627  0.263016  0.256679  0.219903  0.159159
 -0.264332 -0.212621 -0.156943 -0.105202 -0.0644421
 -0.418128 -0.402963 -0.350699 -0.263779 -0.151331
 -0.280547 -0.37574 -0.451278 -0.498694 -0.510288
  0.0656959 -0.0345109 -0.148137 -0.265068 -0.376233
  0.0713802  0.077948  0.00447778 -0.0699758 -0.164923
  0.0491283  0.226806  0.368215  0.457572  0.484779
 -0.362217 -0.321904 -0.255786 -0.174872 -0.0924402
 -0.445235 -0.434146 -0.379655 -0.291697 -0.181465
  0.314611  0.171412  0.0418369 -0.0616267 -0.135152
  0.0325914  0.000600061 -0.0501297 -0.115932 -0.182274
  0.144177  0.20044  0.271479  0.335774  0.368215
 -0.0406277 -0.0195815  0.00373058  0.025542  0.0422273
 -0.0491283 -0.017193 -0.00477244 -0.0228275 -0.0694796
 -0.0828158 -0.0762585 -0.0707479 -0.064242 -0.0553725
  0.0368084  0.0204457 -0.00280877 -0.0319078 -0.0634016
 -0.611236 -0.568333 -0.50272 -0.428261 -0.355685
 -0.00985257  0.005645  0.0193915  0.0310771  0.0401619
 -0.178228 -0.248006 -0.320739 -0.389948 -0.447983
 -0.179301 -0.149276 -0.122454 -0.0984805 -0.0769026
  0.0504919  0.0515474  0.0483158  0.0396591  0.024197
 -0.188581 -0.195967 -0.198111 -0.195996 -0.190528
 -0.0459777 -0.0302921 -0.0164287 -0.00462584  0.00516509
  0.0501297  0.0511178  0.0856576  0.0847602  0.0742696
 -0.190249 -0.188985 -0.179301 -0.162685 -0.141244
 -0.0993069 -0.111264 -0.116028 -0.110401 -0.0924402
  0.0620966 -0.00522633 -0.0748822 -0.140734 -0.198111
 -0.0434226 -0.0289129 -0.0338386 -0.0567486 -0.094303
 -0.129783 -0.0266214  0.0634016  0.127644  0.14241
 -0.481626 -0.428261 -0.340883 -0.230996 -0.114633
 -0.37574 -0.451278 -0.498694 -0.510288 -0.481626
 -0.213096 -0.303728 -0.392006 -0.466 -0.512325
  0.49067  0.421495  0.308598  0.172086  0.0322917
 -0.0721672 -0.0243424  0.00326279  0.00673508 -0.014537
  0.0228275  0.120331  0.221454  0.326079  0.430244
 -0.13267 -0.160577 -0.165449 -0.150792 -0.121599
 -0.0878703 -0.0775172 -0.0315908  0.0420527  0.121186
  0.349191  0.301759  0.22628  0.14241  0.0662199
  0.0405291  0.0477833  0.0475426  0.0398758  0.0258112
 -2.77556e-17 -0.071244 -0.121186 -0.137511 -0.121524
 -0.0517147 -0.0383752 -0.0231595 -0.00694966  0.00932949
  0.0219086  0.0131447 -0.0403513 -0.0775172 -0.129611
 -0.299009 -0.247664 -0.202986 -0.165003 -0.132989
  0.0453225  0.0528484  0.0574933  0.058674  0.0555861
 -0.392006 -0.422609 -0.433425 -0.425287 -0.401616
 -0.0672525 -0.0493051 -0.032656 -0.0172004 -0.00289894
  0.0172551 -0.00673508 -0.0386382 -0.0777546 -0.0934052
 -0.17952 -0.17181 -0.161703 -0.149426 -0.135321
 -1.38778e-17  0.00501797  0.00849598  0.0108268  0.0123537
  0.0282976  0.0101184 -0.0142258 -0.0424985 -0.0722574
 -0.129577 -0.105778 -0.083554 -0.0650211 -0.0517147
 -0.11553 -0.0868532 -0.0495148 -0.00787204  0.0323192
 -0.230824 -0.264098 -0.28264 -0.284855 -0.270692
 -0.110694 -0.160577 -0.212062 -0.259431 -0.296693
  0.0662199  0.0386555 -0.0122793 -0.079301 -0.154797
 -0.0219086  0.0663734  0.12318  0.14241  0.124258
 -0.400787 -0.334429 -0.249037 -0.157315 -0.072891
 -0.399831 -0.369748 -0.298366 -0.18937 -0.053151
 -0.00978193 -0.117419 -0.202414 -0.262823 -0.297545
 -0.0389027 -0.0770239 -0.125935 -0.172298 -0.208038
  0.522295  0.581621  0.598572  0.559401  0.466856
 -0.0932536 -0.0617709 -0.0308735 -0.00513515  0.0118065
  0.34306  0.376721  0.371664  0.345334  0.323948
  0.0249621 -0.0190645 -0.047736 -0.0624231 -0.0647927
  0.0671593  0.072891  0.0876381  0.119477  0.205873
 -0.053151 -0.038868 -0.0281835 -0.0266214 -0.032711
  0.0158317  0.0311234  0.0452381  0.0575962  0.0680133
 -0.0479519 -0.122174 -0.204263 -0.281109 -0.339198
 -0.114222 -0.0906285 -0.0695108 -0.0502277 -0.0323613
  0.0788953  0.0762585  0.0671593  0.0495148  0.0213004
 -0.334199 -0.305923 -0.273224 -0.239243 -0.206158
  0.00253884  0.014958  0.0263791  0.0366061  0.0452381
 -0.0969865 -0.127339 -0.155393 -0.179001 -0.196671
 -0.123919 -0.109046 -0.0934198 -0.0774961 -0.0617072
 -0.00373143 -0.00513515 -0.00684672 -0.00910297 -0.0123826
 -0.0950425 -0.119078 -0.13993 -0.156083 -0.166503
 -0.0487013 -0.0460017 -0.0491226 -0.0570881 -0.0684271
  0.000755294  0.0251884  0.0445118  0.0419028  0.0240962
 -0.24209 -0.207708 -0.16629 -0.123446 -0.084904
 -0.289905 -0.301903 -0.294635 -0.267346 -0.2222
 -0.196671 -0.25925 -0.313975 -0.354249 -0.373811
  0.11634  0.0545514 -0.0227463 -0.106411 -0.188581
 -0.0671593 -0.0258112 -0.00797519 -0.0150329 -0.0946983
  0.127863  0.247216  0.349191  0.420196  0.450199
 -0.256815 -0.254729 -0.233886 -0.19895 -0.15605
 -0.0811408 -0.053029  5.55112e-17  0.0709396  0.148852
  0.375958  0.24874  0.128368  0.0272267 -0.0503695
  0.018166  0.0255591  0.0268611  0.0243424  0.0216921
  0.431614  0.426152  0.441467  0.458471  0.455838
 -0.0553451 -0.0445556 -0.0288448 -0.0104094  0.00889895
  0.363627  0.431979  0.478131  0.485451  0.449134
 -0.0434399 -0.051893 -0.0570361 -0.058674 -0.0567458
  0.0880752  0.104786  0.123446  0.144886  0.169787
 -0.248147 -0.275654 -0.281499 -0.270582 -0.249037
 -0.0222984 -0.00648143  0.00876212  0.0235755  0.0380567
  0.0620624  0.0247251 -0.0718342 -0.129351 -0.187783
 -0.172001 -0.146874 -0.123457 -0.101877 -0.0820909
  0.04908  0.0552136  0.0586852  0.0586764  0.054143
 -0.174247 -0.182675 -0.186013 -0.184839 -0.179978
 -0.0526431 -0.038872 -0.0263972 -0.0156397 -0.006861
 -0.0290835 -0.0336533 -0.0396591 -0.047339 -0.036628
 -0.162428 -0.162783 -0.157423 -0.146874 -0.132119
 -0.0796714 -0.0934772 -0.105498 -0.113587 -0.116024
 -0.0197645 -0.0476576 -0.0817602 -0.118413 -0.153906
 -0.0570361 -0.0368084 -0.0295257 -0.0355221 -0.0535616
 -0.193843 -0.144886 -0.0952826 -0.051893 -0.0204457
 -0.318465 -0.295327 -0.249037 -0.183985 -0.108328
 -0.195967 -0.255975 -0.301169 -0.328064 -0.334176
 -0.0944539 -0.12701 -0.160359 -0.188514 -0.204532
  0.434626  0.388184  0.310179  0.212176  0.107737
 -0.11953 -0.085328 -0.0565236 -0.0364395 -0.0269104
  0.350113  0.405213  0.45024  0.492187  0.534238
 -0.0697117 -0.106044 -0.12506 -0.128777 -0.119893
  0.0924402  0.124709  0.275654  0.369748  0.473265
  0.414115  0.346532  0.263016  0.176872  0.0996708
  0.0227009  0.0421861  0.0615801  0.0814598  0.103429
  0.512225  0.434146  0.350113  0.275836  0.217848
 -0.0523694 -0.0440686 -0.0330002 -0.0197909 -0.00504136
  0.235824  0.275772  0.31594  0.350699  0.275654
 -0.197036 -0.179178 -0.158795 -0.13792 -0.117707
  0.0490808  0.0646322  0.0805809  0.09689  0.113386
 -0.143588 -0.188514 -0.223519 -0.245997 -0.255381
 -0.0665641 -0.0505553 -0.0354134 -0.020976 -0.00715746
  0.0565236  0.0463682  0.0300143  0.00719558 -0.0216451
 -0.155692 -0.149401 -0.141147 -0.131215 -0.119847
 -0.00504136 -0.000409052  0.00233364  0.00341191  0.00304321
 -0.047736 -0.0535616 -0.0625299 -0.0741151 -0.0874202
 -0.114551 -0.0976155 -0.0805809 -0.0651091 -0.0526129
 -0.11953 -0.114267 -0.103429 -0.0882603 -0.0707479
 -0.160509 -0.182949 -0.197939 -0.203867 -0.199982
 -0.0625299 -0.0920592 -0.12506 -0.15788 -0.186918
 -0.0368084 -0.0295257 -0.047736 -0.0710447 -0.103274
 -0.0274034  0.0322712  0.0765906  0.0997587  0.0996708
 -0.284855 -0.264874 -0.231427 -0.189394 -0.144696
 -0.10822 -0.0841877 -0.0417048  0.017242  0.0878703
  0.0427283 -0.0370625 -0.102638 -0.152622 -0.18677
 -0.015634 -0.0133016 -0.01535 -0.0190548  0.0333897
  0.567659  0.567781  0.545809  0.493593  0.41177
 -0.0944888 -0.0758591 -0.0538385 -0.0306374 -0.00808541
  0.619516  0.695408  0.729615  0.719581  0.678958
  0.0419028 -0.0013065 -0.0311945 -0.0494226 -0.057422
  0.142684  0.18212  0.232063  0.295327  0.37402
  0.219091  0.163206  0.114176  0.0705617  0.0328461
  0.00703557  0.023617  0.041517  0.0608972  0.0820961
  0.30737  0.273299  0.219765  0.152745  0.0811408
 -0.09689 -0.0805809 -0.0646322 -0.0490808 -0.0338587
  0.132989  0.151502  0.168534  0.18212  0.189626
 -0.200338 -0.19895 -0.190205 -0.176353 -0.159492
  0.00237723  0.0148948  0.0270611  0.038872  0.0502277
 -0.01535 -0.0444526 -0.0814716 -0.10353 -0.122626
 -0.101912 -0.0907925 -0.0788903 -0.0665641 -0.0541193
 -0.00198002 -0.00458166 -0.00808541 -0.0124807 -0.0178374
 -0.0873839 -0.0989144 -0.109557 -0.118332 -0.124447
 -0.045045 -0.040193 -0.0394711 -0.0425635 -0.0488008
 -0.0714499 -0.0574144 -0.046431 -0.0401693 -0.0378056
 -0.16768 -0.151502 -0.129631 -0.104786 -0.0802433
 -0.182949 -0.197939 -0.203867 -0.199982 -0.186552
 -0.109047 -0.137635 -0.164945 -0.187078 -0.200338
  0.0840544  0.0520783  0.00817636 -0.0424985 -0.0948002
 -0.116694 -0.0864424 -0.064242 -0.0523505 -0.0515474
  0.182274  0.23427  0.276008  0.301647  0.306592
 -0.173305 -0.179978 -0.175051 -0.160524 -0.139139
  0.114941  0.158052  0.214134  0.280239  0.348926
  0.283952  0.191262  0.104591  0.0309005 -0.0271322
  0.0128071  0.0343248  0.0558119  0.078765  0.105528
  0.680084  0.620876  0.56463  0.510878  0.452902
 -0.0525142 -0.0460688 -0.0347237 -0.0198052 -0.00225306
  0.452885  0.545521  0.636034  0.685125  0.699534
  0.000755294 -0.0219546 -0.0368084 -0.0450632 -0.0478386
  0.102218  0.129577  0.161429  0.198736  0.24209
  0.0850428  0.0250676 -0.0247251 -0.0620624 -0.0868532
 -0.0205063 -0.00608665  0.00864676  0.0238381  0.0396542
  0.201756  0.197594  0.181966  0.154093  0.0439783
 -0.125479 -0.111404 -0.0967163 -0.0818797 -0.0672135
  0.057121  0.0669672  0.0757178  0.0828997  0.087804
 -0.100402 -0.111969 -0.119893 -0.124085 -0.124787
 -0.0418215 -0.0309155 -0.0205063 -0.0109361 -0.00253884
 -0.0217451 -0.0272172 -0.0334801 -0.0405291 -0.0482394
 -0.110288 -0.111447 -0.109514 -0.104506 -0.0967163
 -0.05354 -0.0622909 -0.0712055 -0.0791274 -0.0849961
 -0.045372 -0.0525762 -0.0643287 -0.0792064 -0.0954766
 -0.058674 -0.0450632 -0.0378268 -0.0378056 -0.0448923
 -0.161429 -0.141118 -0.117707 -0.0941033 -0.0732202
 -0.151987 -0.144927 -0.12737 -0.100498 -0.0671593
 -0.115633 -0.153931 -0.184619 -0.205919 -0.216718
 -0.0482394 -0.0556447 -0.0602579 -0.0718301 -0.0809206
  0.238376  0.203526  0.1556  0.09929  0.0401949
 -0.107255 -0.0846348 -0.0620931 -0.041227 -0.0232427
  0.418136  0.458815  0.48053  0.484074  0.473388
 -0.0632911 -0.0876761 -0.101312 -0.10522 -0.100731
  0.148934  0.192438  0.245997  0.310717  0.485138
  0.331654  0.25734  0.183917  0.11634  0.0588717
  0.0154547  0.0361512  0.0590473  0.0846348  0.113931
  0.641456  0.601749  0.53736  0.458815  0.376096
 -0.0461849 -0.0401619 -0.0311951 -0.0199006 -0.00671443
  0.270692  0.318912  0.368654  0.415984  0.455396
 -0.073424 -0.0845751 -0.0882603 -0.0864424 -0.0807471
  0.0529158  0.0699832  0.0883855  0.108293  0.129717
  0.0453146  0.00748465 -0.0291456 -0.0614828 -0.087316
 -0.0493213 -0.0369143 -0.0245637 -0.0122687  0.000000000E+00
  0.0880161  0.0881711  0.0842123  0.0754913  0.0617709
 -0.0983622 -0.0967778 -0.0933892 -0.0885035 -0.0822848
  0.00289894  0.00813534  0.0119027  0.0142908  0.0154547
 -0.0431414 -0.0491226 -0.0519865 -0.0566366 -0.0622289
 -0.0783446 -0.0695108 -0.059917 -0.0504562 -0.0420295
 -0.0835421 -0.0846348 -0.0828997 -0.0786062 -0.072361
 -0.0862871 -0.0977264 -0.106859 -0.112513 -0.113931
 -0.0554801 -0.070184 -0.0873839 -0.10522 -0.121821
 -0.0636588 -0.0523694 -0.0466343 -0.0466499 -0.0553451
 -0.0258112 -0.00250793  0.0154432  0.0249621  0.0243591
 -0.192254 -0.185832 -0.172001 -0.152492 -0.129577
 -0.0291456 -0.0208035 -0.00443832  0.0203679  0.0522548
 -0.0370625 -0.0759215 -0.107862 -0.13202 -0.148092
 -0.00304321  0.011974  0.0257555  0.039443  0.054363
  0.376941  0.33499  0.286291  0.23149  0.172086
 -0.0833995 -0.0688179 -0.0514474 -0.0322352 -0.0118121
  0.504888  0.567794  0.611561  0.627497  0.612704
 -0.00713797 -0.0325898 -0.0492099 -0.0581638 -0.0604329
  0.139139  0.176729  0.221301  0.27374  0.334199
  0.269135  0.196566  0.132198  0.077948  0.0345564
  0.00729272  0.0231096  0.0404705  0.0595605  0.0807264
  0.425287  0.433425  0.331386  0.292322  0.24142
 -0.0650211 -0.0567555 -0.0467537 -0.0355677 -0.0235755
  0.141654  0.162685  0.183775  0.203867  0.221301
 -0.0648036 -0.078765 -0.0867793 -0.0894637 -0.087804
  0.0122687  0.0238012  0.0354134  0.0470625  0.0586336
  0.0559019  0.039443  0.020417  0.000000000E+00 -0.0349029
 -0.0625466 -0.0564685 -0.0493051 -0.0412914 -0.0327126
  0.0141999  0.0134089  0.0118121  0.00939715  0.00612787
 -0.050424 -0.0552368 -0.0600407 -0.0643881 -0.0678896
 -0.0346966 -0.0310771 -0.029574 -0.030213 -0.0327389
 -0.0639401 -0.0567555 -0.049841 -0.0440686 -0.040193
 -0.087804 -0.0844541 -0.0785087 -0.0708673 -0.0626737
 -0.124219 -0.132451 -0.136631 -0.136355 -0.131582
 -0.0445556 -0.0519066 -0.0605581 -0.0689571 -0.0754913
 -0.00713797 -0.0237248 -0.0452392 -0.069724 -0.0950425
 -0.102218 -0.0820961 -0.0639401 -0.04908 -0.0383752
  0.0949582  0.115932  0.132198  0.141159  0.140834
 -0.150958 -0.148062 -0.139909 -0.127341 -0.111447
  0.083827  0.104267  0.191002  0.223921  0.255064
  0.0301125 -0.0121346 -0.0473688 -0.0748822 -0.0948002
  0.00915689  0.0302379  0.052297  0.0758591  0.101806
  0.476287  0.420592  0.353665  0.283034  0.21394
 -0.0583153 -0.0486837 -0.0361765 -0.0214226 -0.00485435
  0.342213  0.397551  0.451278  0.497499  0.51493
 -0.0150329 -0.0338386 -0.045119 -0.0503063 -0.0505222
  0.0984805  0.122454  0.149276  0.179301  0.212696
  0.176806  0.127271  0.0797324  0.0376732  0.00326279
 -0.00876212  0.00376591  0.0171177  0.0312858  0.0462618
  0.20893  0.214561  0.21316  0.20355  0.185364
 -0.0620931 -0.0583698 -0.052863 -0.0459777 -0.037955
  0.0672525  0.0769026  0.0856768  0.0933886  0.0997995
 -0.0229366 -0.0329294 -0.0413284 -0.0478337 -0.052297
 -0.0191406 -0.011476 -0.00375911  0.00376591  0.0108416
  0.00375606  0.00037757 -0.00341191 -0.00758003 -0.0120712
 -0.0500353 -0.0518235 -0.0524197 -0.0516409 -0.0494485
 -0.0361765 -0.0403156 -0.0446701 -0.0487756 -0.0521981
 -0.0310771 -0.029574 -0.0304647 -0.033497 -0.0381184
 -0.0524134 -0.050571 -0.0505222 -0.0527492 -0.057422
 -0.114845 -0.104378 -0.0918317 -0.0782064 -0.0646322
 -0.045627 -0.0470446 -0.0463682 -0.0438978 -0.0403522
 -0.12516 -0.13993 -0.150958 -0.157502 -0.159166
 -0.0231595 -0.0167932 -0.0132145 -0.0117788  0.00699033
  0.0656959  0.0418369  0.0137856 -0.0166178 -0.0473688
 -0.0885035 -0.0701372 -0.0516409 -0.0335189 -0.0162156
  0.225961  0.228328  0.217379  0.192366  0.155181
 -0.13242 -0.12939 -0.122691 -0.112683 -0.0998114
  0.119893  0.147921  0.178764  0.212062  0.246649
  0.0516437  0.00317827 -0.0345109 -0.0616267 -0.079301
  0.0128693  0.0317319  0.0518235  0.0733782  0.0967778
  0.399464  0.375578  0.334293  0.279579  0.217379
 -0.048457 -0.0401244 -0.0296643 -0.0175252 -0.00398236
  0.216718  0.245489  0.27425  0.301169  0.3236
 -0.0123826 -0.0290835 -0.0395875 -0.0448368 -0.0458375
  0.0620893  0.0777563  0.094054  0.110918  0.128175
  0.146166  0.121936  0.0579742  0.0347318  0.0133016
 -0.0204683 -0.0126787 -0.00376591  0.00608665  0.0166492
  0.0967778  0.0983622  0.0977264  0.0944888  0.0884527
 -0.0302379 -0.0322352 -0.0331394 -0.0330586 -0.0320322
  0.0183086  0.0231096  0.0268846  0.0295451  0.0311227
 -0.00694966 -0.00932949 -0.0117883 -0.0143525 -0.0177946
 -0.0323094 -0.0302921 -0.0277158 -0.0248858 -0.0221319
 -0.0518235 -0.0524197 -0.0516409 -0.0494485 -0.0459777
 -0.0225619 -0.026264 -0.0302379 -0.0340192 -0.0372264
 -0.0716379 -0.0792064 -0.0868417 -0.0939069 -0.0998114
 -0.0490808 -0.0380567 -0.0289787 -0.0222946 -0.0181771
 -0.0336533 -0.0396591 -0.047339 -0.0567486 -0.0677509
 -0.149426 -0.140225 -0.128175 -0.113936 -0.0982485
  0.0304435  0.0347318  0.0383174  0.040763  0.0412352
 -0.132164 -0.14682 -0.157086 -0.163156 -0.165192
  0.00187246  0.0170358  0.0312302  0.0445556  0.0570881
 -0.000463461 -0.0546073 -0.104446 -0.145661 -0.175841
 -0.0863208 -0.0678896 -0.0492804 -0.0306163 -0.0119671
  0.21672  0.23161  0.267438  0.255382  0.226868
 -0.13267 -0.125392 -0.115043 -0.102685 -0.088886
  0.112647  0.135514  0.159585  0.184839  0.211043
  0.08067  0.0321616 -0.00846074 -0.0393208 -0.0602247
  0.0119027  0.0278311  0.0447578  0.0625466  0.0811028
  0.262823  0.261987  0.251819  0.23161  0.163948
 -0.0322558 -0.0287065 -0.0231595 -0.0158317 -0.006861
  0.13794  0.150877  0.162428  0.172281  0.179978
  0.015634  0.00374903 -0.00562487 -0.0124807 -0.0169767
  0.0309155  0.0418215  0.0529158  0.0639116  0.0745011
  0.0744312  0.0662943  0.0570881  0.0471575  0.0369007
 -0.0133563 -0.0124748 -0.0104899 -0.00729272 -0.00289894
  0.0312743  0.0306163  0.0293001  0.027446  0.0251589
 -0.00288746 -0.00357794 -0.00485435 -0.00652727 -0.00839458
 -0.0156719 -0.0158504 -0.0165283 -0.0177946 -0.0196224
 -0.037955 -0.0323613 -0.0263972 -0.0204608 -0.014958
 -0.0158039 -0.0193751 -0.0232427 -0.0275094 -0.0322558
 -0.106263 -0.106281 -0.104346 -0.100398 -0.0944645
 -0.00366049 -0.000958027  0.00341191  0.00304321  0.00138479
 -0.110694 -0.125392 -0.137747 -0.147321 -0.153906
 -0.0774961 -0.0617072 -0.0465042 -0.0323613 -0.0197163
  0.0278168  0.0109493 -0.0117319 -0.0393208 -0.0699758
 -0.17952 -0.166503 -0.151734 -0.135523 -0.11827
  0.0647927  0.0720716  0.0765083  0.0770584  0.0862058
 -0.30368 -0.299438 -0.284565 -0.262823 -0.237516
  0.00652727  0.0243056  0.0415245  0.0581147  0.0739578
  0.0565099 -0.000941768 -0.0628026 -0.122457 -0.173297
 -0.0811836 -0.0622909 -0.0436739 -0.0251589 -0.00662752
  0.185439  0.195967  0.202414  0.202699  0.194506
 -0.0969865 -0.0946983 -0.088354 -0.0793925 -0.0687844
  0.100398  0.11827  0.135523  0.151734  0.166503
  0.0862058  0.0602247  0.0357914  0.014537 -0.00251399
  0.00888289  0.0197163  0.0323613  0.0465042  0.0617072
  0.157504  0.153906  0.147321  0.137747  0.125392
  0.00458166  0.00198002  0.00037757 -4.53712e-05  0.000958027
  0.0867216  0.0944645  0.100398  0.104346  0.106281
  0.0374883  0.0322558  0.0227009  0.0199646  0.0172701
  0.0102726  0.014958  0.0204608  0.0263972  0.0323613
  0.0218657  0.0196224  0.0177946  0.0165283  0.0158504
  0.0102675  0.0085001  0.00662752  0.00480132  0.00317418
 -0.0225619 -0.0251589 -0.027446 -0.0293001 -0.0306163
 -0.00253884  0.00289894  0.00729272  0.0104899  0.01307
 -0.0267759 -0.0369007 -0.0471575 -0.0570881 -0.0662943
 -0.0843362 -0.0745011 -0.0639116 -0.0529158 -0.0418215
  0.0217451  0.0178374  0.011124  0.00128858 -0.0118065
 -0.184839 -0.179978 -0.172281 -0.162428 -0.150877
 -0.00366244  0.006861  0.0158317  0.0231595  0.0287065
 -0.164923 -0.201964 -0.23161 -0.251819 -0.261987
 -0.100398 -0.0811028 -0.0625466 -0.0447578 -0.0278311
  0.0154433 -0.0215477 -0.0695875 -0.127516 -0.192366
 -0.256815 -0.218278 -0.182949 -0.151092 -0.122511
  0.0792064  0.0872676  0.0920592  0.092998  0.0891933
 -0.321613 -0.334293 -0.328952 -0.309268 -0.28025
  0.0125221  0.0314979  0.0500353  0.0678896  0.0846667
  0.0661704  0.0293873 -0.00977864 -0.0516437 -0.0921705
 -0.0551942 -0.0421365 -0.0288448 -0.0149112  4.53712e-05
  0.163277  0.165192  0.163156  0.157086  0.14682
 -0.0110908 -0.0131431 -0.0136708 -0.0133016 -0.0123537
  0.0818797  0.0982485  0.113936  0.128175  0.140225
  0.0800097  0.0677509  0.0567486  0.047339  0.0434287
  0.0165283  0.0181771  0.0222946  0.0289787  0.0380567
  0.104065  0.0998114  0.0939069  0.0868417  0.0792064
  0.0374703  0.0352345  0.0322352  0.0287529  0.0251589
  0.041517  0.0459777  0.0494485  0.0516409  0.0524197
  0.0197909  0.0221319  0.0248858  0.0277158  0.0302921
  0.0198052  0.0170358  0.0143525  0.0117883  0.00932949
 -0.0317319 -0.0311227 -0.0295451 -0.0268846 -0.0231096
  0.0313646  0.0337725  0.0350876  0.0352345  0.0340192
 -0.0796714 -0.0884527 -0.0944888 -0.0977264 -0.0983622
 -0.0276953 -0.0166492 -0.00608665  0.00376591  0.0126787
 -0.0136708 -0.0383174 -0.065854 -0.0944539 -0.121936
 -0.145566 -0.128175 -0.110918 -0.094054 -0.0777563
  0.0434576  0.0458375  0.0434287  0.0336533  0.0172551
 -0.33835 -0.3236 -0.301169 -0.27425 -0.245489
 -0.0108393  0.00398236  0.0175252  0.0296643  0.0401244
 -0.354179 -0.425168 -0.484428 -0.524168 -0.53925
 -0.104497 -0.0781461 -0.0545441 -0.0330586 -0.0133129
  0.0297821 -0.00129092 -0.0418369 -0.0915885 -0.170754
 -0.293541 -0.246824 -0.20355 -0.164945 -0.131194
  0.0998114  0.109557  0.114572  0.114117  0.107684
 -0.206875 -0.221816 -0.225174 -0.217113 -0.199821
  0.0189723  0.0362805  0.0549285  0.0742374  0.0933886
  0.0765674  0.0473688  0.0166178 -0.0137856 -0.0418369
  0.0120201  0.0116822  0.0117788  0.0132145  0.0167932
  0.155909  0.159166  0.157502  0.150958  0.13993
  0.0508313  0.054143  0.0565236  0.0572203  0.0558119
  0.0522435  0.0646322  0.0782064  0.0918317  0.104378
  0.0643287  0.057422  0.0527492  0.0505222  0.050571
  0.0415245  0.0366956  0.0327389  0.030213  0.029574
  0.0545441  0.0521981  0.0487756  0.0446701  0.0403156
  0.0459777  0.0494485  0.0491528  0.0503781  0.0503643
  0.0167932  0.0120712  0.00758003  0.00341191 -0.00037757
 -0.0172004 -0.0108416 -0.00376591  0.00375911  0.011476
  0.0576497  0.0538385  0.0472117  0.0377652  0.0257555
 -0.104497 -0.0997995 -0.0933886 -0.0856768 -0.0769026
  0.0289597  0.037955  0.0459777  0.052863  0.0610025
 -0.159261 -0.185364 -0.20355 -0.21316 -0.214561
 -0.0620893 -0.0462618 -0.0312858 -0.0171177 -0.00376591
 -0.00860619 -0.0451444 -0.0907192 -0.143435 -0.199821
 -0.249287 -0.212696 -0.179301 -0.149276 -0.122454
  0.0466499  0.0505222  0.0503063  0.045119  0.0338386
 -0.639736 -0.601378 -0.542447 -0.472967 -0.401616
  0.00480132  0.0218657  0.0366956  0.0486837  0.0569396
 -0.33499 -0.397801 -0.458047 -0.512884 -0.555726
 -0.105498 -0.0781477 -0.0538385 -0.0312009 -0.00939715
  0.0722574  0.0399661 -0.00214343 -0.0533501 -0.111287
 -0.184016 -0.149849 -0.119046 -0.0930751 -0.0718301
  0.119528  0.136631  0.149401  0.156283  0.156083
 -0.130113 -0.140834 -0.077948 -0.0637022 -0.045602
  0.0321097  0.0383752  0.04908  0.0639401  0.0820961
  0.119078  0.0950425  0.069724  0.0452392  0.0237248
  0.0842123  0.0781477  0.0696676  0.0601977  0.0512425
  0.122665  0.131582  0.136355  0.136631  0.132451
  0.0551902  0.0626737  0.0708673  0.0785087  0.0828997
  0.0387244  0.040193  0.0440686  0.049841  0.0567555
  0.0366956  0.0327389  0.030213  0.029574  0.0310771
  0.0691005  0.0678896  0.0655343  0.0622059  0.0581147
 -0.00198002 -0.00612787 -0.00939715 -0.0118121 -0.0134089
  0.0238381  0.0327126  0.0412914  0.0493051  0.0564685
  0.039443  0.020417  0.000000000E+00 -0.020417 -0.039443
 -0.0699333 -0.0586336 -0.0470625 -0.0354134 -0.0238012
  0.0844541  0.0870976  0.085328  0.077892  0.0637904
 -0.233886 -0.221301 -0.203867 -0.183775 -0.162685
  0.0109361  0.0235755  0.0355677  0.0467537  0.0567555
 -0.28387 -0.344019 -0.392006 -0.422609 -0.433425
 -0.104506 -0.0807264 -0.0595605 -0.0404705 -0.0231096
 -0.00177461 -0.0345564 -0.247244 -0.320882 -0.399033
 -0.373811 -0.301903 -0.240878 -0.190205 -0.148495
  0.0604329  0.0554801  0.0423146  0.0197645 -0.0135479
 -0.635631 -0.63407 -0.601749 -0.542194 -0.466
  0.01247  0.0340192  0.0547519  0.073704  0.0895911
 -0.248564 -0.317868 -0.375639 -0.419892 -0.403666
 -0.0313037 -0.0209203 -0.0120201 -0.00268922  0.00870052
  0.160392  0.139257  0.107862  0.0665577  0.016415
 -0.00662934  0.0216921  0.0431591  0.0563707  0.0614828
  0.105778  0.129577  0.152492  0.172001  0.185832
 -0.0135479 -0.0243591 -0.0249621 -0.0154432  0.00250793
  0.0617024  0.0519865  0.0466499  0.0466343  0.0523694
  0.135514  0.121821  0.10522  0.0873839  0.070184
  0.106264  0.107255  0.104497  0.0983622  0.0895911
  0.0650211  0.072361  0.0786062  0.0828997  0.0846348
  0.0354248  0.0420295  0.0504562  0.059917  0.0695108
  0.0739578  0.068006  0.0617024  0.0553451  0.0491226
 -0.015526 -0.0154547 -0.0142908 -0.0119027 -0.00813534
  0.0748359  0.0822848  0.0933886  0.0997995  0.104497
 -0.0433121 -0.0617709 -0.0754913 -0.0842123 -0.0881711
 -0.0122687  0.000000000E+00  0.0122687  0.0245637  0.0369143
  0.08371  0.0563707  0.0208035 -0.0208749 -0.065257
 -0.152492 -0.129717 -0.108293 -0.0883855 -0.0699832
  0.0723413  0.0807471  0.0864424  0.0882603  0.0506732
 -0.480435 -0.455396 -0.415984 -0.368654 -0.318912
 -0.00813534  0.00671443  0.0199006  0.0311951  0.0401619
 -0.488547 -0.56657 -0.64493 -0.711743 -0.751194
 -0.117316 -0.087804 -0.0620931 -0.038816 -0.0173796
 -0.0777127 -0.145411 -0.223986 -0.306592 -0.384845
 -0.391281 -0.308033 -0.237715 -0.181966 -0.138911
  0.111273  0.117313  0.113526  0.0981064  0.069724
 -0.440945 -0.415208 -0.377191 -0.327779 -0.269564
  0.0272172  0.0426793  0.0633446  0.087804  0.113931
 -0.0514711 -0.122958 -0.191262 -0.24874 -0.288622
  0.111264  0.0993069  0.083827  0.068293  0.0556447
  0.216625  0.216718  0.205919  0.184619  0.153931
  0.0316823  0.0671593  0.12992  0.147426  0.15605
  0.0574933  0.0732202  0.0941033  0.117707  0.141118
  0.0581638  0.0448923  0.0378056  0.0378268  0.0450632
  0.100731  0.0868417  0.0728932  0.0604329  0.0508843
  0.0880161  0.0849961  0.0791274  0.0712055  0.0622909
  0.0867126  0.0967163  0.104506  0.109514  0.10617
  0.0564031  0.0482394  0.0405291  0.0334801  0.0272172
 -0.00443107  0.00253884  0.0109361  0.0205063  0.0309155
  0.134458  0.137725  0.136894  0.131194  0.120264
 -0.0894637 -0.087804 -0.0828997 -0.0757178 -0.0669672
  0.0529158  0.0672135  0.0818797  0.0967163  0.111404
 -0.0674594 -0.114941 -0.154093 -0.181966 -0.197594
 -0.0563416 -0.0396542 -0.0238381 -0.00864676  0.00608665
  0.0495148  0.0213004 -0.0190341 -0.0720114 -0.136333
 -0.291347 -0.24209 -0.198736 -0.161429 -0.129577
  0.045976  0.0478386  0.0450632  0.0368084  0.0219546
 -0.752648 -0.72887 -0.662064 -0.568333 -0.467349
  0.00037757  0.0192451  0.0357895  0.0488008  0.0566366
 -0.484779 -0.527082 -0.583275 -0.601825 -0.629475
 -0.08371 -0.0637904 -0.0470446 -0.0306008 -0.0124807
  0.0424985 -0.0217644 -0.104591 -0.203386 -0.310179
 -0.143907 -0.0811408 -0.0321013 -5.55112e-17  0.0162501
  0.148495  0.176729  0.197939  0.208361  0.205165
 -0.339765 -0.330245 -0.293214 -0.234717 -0.043183
  0.0611707  0.0515474  0.0523505  0.064242  0.0864424
  0.144139  0.0948002  0.0424985 -0.00817636 -0.0520783
  0.19895  0.190282  0.172333  0.147921  0.120391
  0.165003  0.186552  0.199982  0.203867  0.197939
  0.059277  0.0802433  0.104786  0.129631  0.151502
  0.0448923  0.0395989  0.0401693  0.046431  0.0574144
  0.0572353  0.0488008  0.0425635  0.0394711  0.040193
  0.122471  0.121706  0.118332  0.112683  0.10522
  0.0242768  0.0178374  0.0124807  0.00808541  0.00458166
  0.0418215  0.0541193  0.0665641  0.0788903  0.0907925
  0.150792  0.130191  0.104267  0.0748966  0.0444526
 -0.0608972 -0.0502277 -0.038872 -0.0270611 -0.0148948
  0.141244  0.159492  0.184215  0.196436  0.201756
 -0.188105 -0.189626 -0.18212 -0.168534 -0.151502
  0.018813  0.0338587  0.0490808  0.0646322  0.0805809
 -0.143907 -0.221391 -0.29703 -0.359596 -0.399831
 -0.105778 -0.0820961 -0.0608972 -0.041517 -0.023617
 -0.00229034 -0.0328461 -0.0705617 -0.114176 -0.291249
 -0.350699 -0.270582 -0.20941 -0.163985 -0.12992
  0.0647095  0.0580313  0.0398483  0.00857489 -0.0374919
 -0.554314 -0.566401 -0.557019 -0.512225 -0.434128
  0.00562487  0.0273139  0.0523168  0.0781477  0.101806
 -0.425164 -0.517842 -0.573739 -0.588847 -0.570861
  0.0930804  0.0751087  0.0552065  0.0383174  0.028024
  0.230824  0.198111  0.14682  0.0774644 -0.00862463
  0.0742889  0.148607  0.202336  0.231897  0.237715
  0.103373  0.144696  0.189394  0.231427  0.264874
 -0.0777127 -0.0996708 -0.0997587 -0.0765906 -0.0322712
  0.115043  0.0811792  0.0535616  0.0355221  0.0295257
  0.20893  0.186918  0.15788  0.12506  0.0920592
  0.186552  0.199982  0.183375  0.175051  0.159585
  0.0534086  0.0707479  0.0882603  0.103429  0.114267
  0.0440686  0.0526129  0.0651091  0.0805809  0.0976155
  0.113526  0.103078  0.0920592  0.0811792  0.0710447
 -0.00138479 -0.00304321 -0.00341191 -0.00233364  0.000409052
  0.107339  0.119847  0.131215  0.141147  0.164395
  0.0552065  0.0216451 -0.00719558 -0.0300143 -0.0463682
 -0.00608665  0.00715746  0.020976  0.0354134  0.0505553
  0.259392  0.255786  0.237715  0.204532  0.158052
 -0.129631 -0.113386 -0.09689 -0.0805809 -0.0646322
  0.0985969  0.117707  0.13792  0.158795  0.179178
 -0.369748 -0.371654 -0.350699 -0.31594 -0.275772
 -0.0108591  0.00504136  0.0197909  0.0330002  0.0440686
 -0.306439 -0.348746 -0.405213 -0.477908 -0.557019
 -0.0845751 -0.0715299 -0.0586764 -0.0442378 -0.0275094
 -0.0892808 -0.171003 -0.263016 -0.351776 -0.420196
 -0.230448 -0.146566 -0.0811876 -0.0417048 -0.0247251
  0.131194  0.147921  0.151286  0.137747  0.10477
 -0.512148 -0.441467 -0.272317 -0.173876 -0.0787053
  0.0296589  0.0290835  0.0438978  0.0726875  0.111846
 -0.0592464 -0.173287 -0.283952 -0.375958 -0.434626
  0.310717  0.272982  0.223603  0.170268  0.119585
  0.318912  0.334176  0.328064  0.301169  0.255975
  0.032711  0.108328  0.183985  0.249037  0.294635
  0.00462205  0.0204457  0.051893  0.0952826  0.144886
  0.0811792  0.0535616  0.0355221  0.0295257  0.0368084
  0.157504  0.12939  0.0981064  0.0666052  0.0380396
  0.111846  0.116024  0.113587  0.105498  0.0934772
  0.114551  0.132119  0.146874  0.157423  0.162783
  0.0677509  0.0567486  0.047339  0.0396591  0.0336533
  0.000133247  0.006861  0.0156397  0.0263972  0.038872
  0.194961  0.208361  0.218278  0.223118  0.221394
 -0.0438978 -0.054143 -0.0586764 -0.0586852 -0.0552136
  0.0639116  0.0820909  0.101877  0.123457  0.146874
  0.214134  0.150376  0.0850428  0.0250676 -0.0247251
 -0.0522435 -0.0380567 -0.0235755 -0.00876212  0.00648143
  0.2222  0.249037  0.212594  0.211415  0.19087
 -0.198638 -0.169787 -0.144886 -0.123446 -0.104786
  0.0511431  0.0567458  0.058674  0.0570361  0.051893
 -0.486897 -0.537572 -0.546 -0.506726 -0.431979
 -0.0172476  0.00229583  0.0229366  0.0421365  0.0570881
 -0.454758 -0.446306 -0.407084 -0.359786 -0.339828
  0.0522548  0.0264769  0.00326279 -0.0123826 -0.0177877
  0.0982034  0.0227463 -0.0789188 -0.203526 -0.339785
  0.148524  0.230448  0.281109  0.29703  0.280239
  0.144927  0.201756  0.252877  0.289905  0.306137
 -0.443216 -0.420196 -0.347348 -0.233816 -0.094231
  0.093608  0.0450057  0.0150329  0.00797519  0.0258112
  0.262823  0.188581  0.106411  0.0227463 -0.0545514
  0.342141  0.334199  0.306137  0.262245  0.207725
  0.164471  0.2222  0.267346  0.294635  0.301903
  0.0555861  0.084904  0.123446  0.16629  0.207708
  0.000281629 -0.0240962 -0.0374919 -0.0379798 -0.0251884
  0.0812348  0.0684271  0.0570881  0.0491226  0.0460017
  0.170641  0.166503  0.150958  0.13993  0.12516
  0.0172551  0.0123826  0.00910297  0.00684672  0.00513515
  0.0465042  0.0617072  0.0774961  0.0934198  0.109046
  0.25925  0.246649  0.224314  0.193406  0.156339
 -0.0517147 -0.0452381 -0.0366061 -0.0263791 -0.014958
  0.175197  0.206158  0.239243  0.273224  0.342141
  0.0190341 -0.0213004 -0.0495148 -0.0671593 -0.0762585
  0.0156498  0.0323613  0.0502277  0.0695108  0.0906285
  0.279809  0.230448  0.156125  0.0709396 -0.0081669
 -0.0768694 -0.0680133 -0.0575962 -0.0452381 -0.0311234
  0.0418528  0.032711  0.0266214  0.0281835  0.038868
 -0.249167 -0.174381 -0.119477 -0.0876381 -0.072891
  0.0687844  0.0720716  0.0620783  0.036628 -0.00587813
 -0.224456 -0.192908 -0.167018 -0.129826 -0.071244
 -0.0233421 -0.0136708  0.0103947  0.0448318  0.0840548
 -0.421495 -0.532143 -0.588847 -0.582248 -0.522295
  0.362823  0.28387  0.199821  0.122135  0.0586612
  0.361826  0.33835  0.284565  0.202699  0.0955808
  0.0865959  0.249167  0.447617  0.505636  0.516283
  0.00787204  0.072891  0.157315  0.249037  0.334429
 -0.0742696 -0.124258 -0.14241 -0.12318 -0.0663734
  0.169839  0.0982034  0.0297821 -0.0282976 -0.0686832
  0.317996  0.296693  0.259431  0.212062  0.160577
  0.24209  0.270692  0.284855  0.28264  0.219802
 -0.0649439 -0.0323192  0.00787204  0.0495148  0.0868532
  0.044423  0.0517147  0.0650211  0.083554  0.105778
  0.115633  0.0948002  0.0725586  0.0503695  0.0297821
 -0.0133016 -0.0123537 -0.0108268 -0.00849598 -0.00501797
  0.119847  0.135321  0.149426  0.161703  0.17181
  0.168597  0.122135  0.0777546  0.0386382  0.00673508
 -0.0102726  0.00289894  0.0172004  0.032656  0.0493051
  0.415984  0.455396  0.480435  0.485138  0.466
 -0.047075 -0.0555861 -0.058674 -0.0574933 -0.0528484
  0.105778  0.132989  0.165003  0.202986  0.247664
  0.0787053  0.0315908  0.00616554 -0.00566798 -0.0131447
 -0.0247517 -0.00932949  0.00694966  0.0231595  0.0383752
  0.0865959  0.121524 -0.00477244 -0.0228275 -0.0694796
 -0.00787204 -0.0258112 -0.0398758 -0.0475426 -0.0477833
 -0.0405374 -0.118021 -0.207465 -0.293214 -0.353032
  0.149197  0.225194  0.275836  0.284615  0.250654
  0.111264  0.155278  0.185364  0.194814  0.179001
 -0.442123 -0.326079 -0.20044 -0.0710469  0.204242
  0.0117319 -0.0319351 -0.0451444 -0.0264769  0.0216921
  0.0661704 -0.0778108 -0.224499 -0.355017 -0.447752
  0.569179  0.504888  0.413937  0.309268  0.201964
  0.414081  0.481626  0.510288  0.498694  0.451278
  0.00908318  0.114633  0.230996  0.340883  0.428261
 -0.153381 -0.158297 -0.127644 -0.0634016  0.0266214
  0.142039  0.094303  0.0567486  0.0338386  0.0289129
  0.195996  0.152622  0.0995625  0.0399661 -0.0217644
  0.0620624  0.0924402  0.110401  0.116028  0.111264
  0.117425  0.141244  0.162685  0.179301  0.188985
 -0.00129092 -0.0216989 -0.0371706 -0.046992 -0.0511178
 -0.0132145 -0.00516509  0.00462584  0.0164287  0.0302921
  0.182344  0.190528  0.243522  0.255975  0.262823
 -0.000600061 -0.024197 -0.0396591 -0.0483158 -0.0515474
  0.0572691  0.0769026  0.0984805  0.122454  0.149276
  0.542194  0.48898  0.418136  0.339222  0.260609
 -0.045976 -0.0401619 -0.0310771 -0.0193915 -0.005645
  0.290786  0.355685  0.428261  0.50272  0.549553
  0.0918533  0.0634016  0.0319078  0.00280877 -0.0204457
  0.0434576  0.0553725  0.064242  0.0707479  0.0762585
  0.000000000E+00 -0.0390345 -0.0581187 -0.0459995 -0.00503586
 -0.0505911 -0.0422273 -0.025542 -0.00373058  0.0195815
 -0.38894 -0.369358 -0.305045 -0.221454 -0.144177
  0.296027  0.196566  0.100127  0.0205237 -0.0357914
  0.193769  0.130519  0.0345109 -0.0915885 -0.23852
  0.403043  0.537572  0.622399  0.649509  0.618362
  0.0247251  0.124709  0.231897  0.328805  0.39966
 -0.452902 -0.455129 -0.38894 -0.260318 -0.0832418
  0.116232  0.00557053 -0.0839029 -0.141159 -0.156197
  0.472228  0.376233  0.265068  0.148137  0.0345109
  0.481626  0.510288  0.416681  0.361602  0.284565
  0.0281835  0.151331  0.263779  0.350699  0.402963
  0.0398758  0.0644421  0.105202  0.156943  0.212621
 -0.104591 -0.169596 -0.219903 -0.248473 -0.250835
  0.0809206  0.0718301  0.0602579  0.0495002  0.0422273
  0.184099  0.17952  0.165192  0.141152  0.107862
 -0.100127 -0.0981405 -0.0907192 -0.0797324 -0.0673021
  0.0323094  0.0494485  0.0674305  0.0856768  0.103568
  0.284565  0.280547  0.265068  0.237814  0.200227
 -0.056374 -0.0540919 -0.048457 -0.0401244 -0.0296643
  0.166786  0.201271  0.239995  0.28264  0.328064
  0.296027  0.222165  0.156197  0.099237  0.0521909
 -0.00290902  0.0137443  0.0323094  0.052863  0.0757178
  0.635499  0.652479  0.622399  0.557019  0.477908
 -0.00462205 -0.0295257 -0.0445468 -0.0505222 -0.048457
  0.0671593  0.072891  0.0876381  0.119477  0.174381
  0.176219  0.226806  0.247216  0.228471  0.178326
  0.0271516  0.0495002  0.0625736  0.0626982  0.047339
 -0.0251993